File: RED MUD SA_XRD.txt
Index	X	Acquisition
0	-6.31123	0
3	-6.22028	4
6	-6.12933	2
9	-6.03837	2
12	-5.94742	7
15	-5.85647	1
18	-5.76551	2
21	-5.67456	4
24	-5.5836	4
27	-5.49265	3
30	-5.4017	2
33	-5.31074	1
36	-5.21979	6
39	-5.12884	3
42	-5.03788	2
45	-4.94693	4
48	-4.85597	1
51	-4.76502	4
54	-4.67407	2
57	-4.58311	2
60	-4.49216	5
63	-4.40121	3
66	-4.31025	3
69	-4.2193	2
72	-4.12834	1
75	-4.03739	2
78	-3.94644	0
81	-3.85548	3
84	-3.76453	0
87	-3.67358	1
90	-3.58262	6
93	-3.49167	4
96	-3.40071	3
99	-3.30976	3
102	-3.21881	7
105	-3.12785	3
108	-3.0369	4
111	-2.94595	4
114	-2.85499	2
117	-2.76404	5
120	-2.67308	3
123	-2.58213	5
126	-2.49118	5
129	-2.40022	2
132	-2.30927	5
135	-2.21832	3
138	-2.12736	9
141	-2.03641	3
144	-1.94545	0
147	-1.8545	2
150	-1.76355	7
153	-1.67259	1
156	-1.58164	8
159	-1.49069	4
162	-1.39973	1
165	-1.30878	4
168	-1.21782	2
171	-1.12687	4
174	-1.03592	2
177	-0.944963	4
180	-0.854009	9
183	-0.763055	7
186	-0.672102	3
189	-0.581148	5
192	-0.490194	2
195	-0.39924	5
198	-0.308287	7
201	-0.217333	9
204	-0.126379	8
207	-0.0354253	15
210	0.0555284	8
213	0.146482	11
216	0.237436	3
219	0.32839	3
222	0.419344	6
225	0.510297	8
228	0.601251	6
231	0.692205	7
234	0.783159	6
237	0.874113	4
240	0.965067	8
243	1.05602	10
246	1.14697	11
249	1.23793	8
252	1.32888	20
255	1.41984	51
258	1.51079	120
261	1.60174	206
264	1.6927	193
267	1.78365	228
270	1.87461	205
273	1.96556	191
276	2.05652	214
279	2.14747	225
282	2.23842	237
285	2.32938	260
288	2.42033	204
291	2.51129	210
294	2.60224	237
297	2.6932	223
300	2.78415	233
303	2.87511	233
306	2.96606	231
309	3.05702	267
312	3.14797	276
315	3.23893	221
318	3.32988	263
321	3.42084	242
324	3.51179	263
327	3.60275	244
330	3.69371	257
333	3.78466	263
336	3.87562	271
339	3.96657	244
342	4.05753	253
345	4.14849	268
348	4.23944	263
351	4.3304	284
354	4.42136	269
357	4.51231	281
360	4.60327	275
363	4.69423	248
366	4.78518	267
369	4.87614	238
372	4.9671	267
375	5.05806	249
378	5.14901	260
381	5.23997	301
384	5.33093	247
387	5.42189	287
390	5.51285	261
393	5.6038	236
396	5.69476	258
399	5.78572	277
402	5.87668	254
405	5.96764	242
408	6.0586	283
411	6.14956	281
414	6.24052	292
417	6.33148	234
420	6.42244	280
423	6.5134	273
426	6.60436	262
429	6.69532	260
432	6.78628	273
435	6.87724	300
438	6.9682	259
441	7.05916	265
444	7.15012	253
447	7.24108	296
450	7.33204	291
453	7.42301	293
456	7.51397	261
459	7.60493	293
462	7.69589	259
465	7.78685	302
468	7.87782	284
471	7.96878	258
474	8.05974	290
477	8.15071	267
480	8.24167	305
483	8.33264	271
486	8.4236	282
489	8.51456	288
492	8.60553	287
495	8.69649	271
498	8.78746	288
501	8.87842	308
504	8.96939	317
507	9.06036	344
510	9.15132	326
513	9.24229	308
516	9.33325	278
519	9.42422	299
522	9.51519	347
525	9.60616	339
528	9.69712	321
531	9.78809	316
534	9.87906	331
537	9.97003	348
540	10.061	330
543	10.152	329
546	10.2429	373
549	10.3339	363
552	10.4249	379
555	10.5158	352
558	10.6068	392
561	10.6978	341
564	10.7888	386
567	10.8797	381
570	10.9707	373
573	11.0617	385
576	11.1526	396
579	11.2436	413
582	11.3346	379
585	11.4256	359
588	11.5165	391
591	11.6075	404
594	11.6985	419
597	11.7895	454
600	11.8804	459
603	11.9714	440
606	12.0624	447
609	12.1534	427
612	12.2443	411
615	12.3353	453
618	12.4263	487
621	12.5173	454
624	12.6082	443
627	12.6992	461
630	12.7902	469
633	12.8812	458
636	12.9722	490
639	13.0631	469
642	13.1541	520
645	13.2451	472
648	13.3361	554
651	13.427	503
654	13.518	514
657	13.609	488
660	13.7	472
663	13.791	515
666	13.882	545
669	13.9729	582
672	14.0639	537
675	14.1549	522
678	14.2459	559
681	14.3369	537
684	14.4279	544
687	14.5188	577
690	14.6098	551
693	14.7008	579
696	14.7918	558
699	14.8828	514
702	14.9738	571
705	15.0648	570
708	15.1557	583
711	15.2467	573
714	15.3377	605
717	15.4287	573
720	15.5197	563
723	15.6107	583
726	15.7017	593
729	15.7927	597
732	15.8837	578
735	15.9747	579
738	16.0656	564
741	16.1566	585
744	16.2476	616
747	16.3386	621
750	16.4296	631
753	16.5206	577
756	16.6116	609
759	16.7026	639
762	16.7936	604
765	16.8846	676
768	16.9756	648
771	17.0666	620
774	17.1576	626
777	17.2486	647
780	17.3396	671
783	17.4306	619
786	17.5216	645
789	17.6126	645
792	17.7036	637
795	17.7946	638
798	17.8856	691
801	17.9766	658
804	18.0676	684
807	18.1586	638
810	18.2496	625
813	18.3406	663
816	18.4316	683
819	18.5226	732
822	18.6136	680
825	18.7046	710
828	18.7956	708
831	18.8866	669
834	18.9776	667
837	19.0686	731
840	19.1596	694
843	19.2507	678
846	19.3417	704
849	19.4327	710
852	19.5237	686
855	19.6147	720
858	19.7057	730
861	19.7967	682
864	19.8877	729
867	19.9787	711
870	20.0698	669
873	20.1608	703
876	20.2518	734
879	20.3428	711
882	20.4338	731
885	20.5248	705
888	20.6158	780
891	20.7069	692
894	20.7979	748
897	20.8889	723
900	20.9799	743
903	21.0709	747
906	21.162	722
909	21.253	802
912	21.344	749
915	21.435	782
918	21.526	765
921	21.6171	780
924	21.7081	806
927	21.7991	705
930	21.8901	734
933	21.9812	774
936	22.0722	790
939	22.1632	811
942	22.2542	778
945	22.3453	733
948	22.4363	770
951	22.5273	811
954	22.6184	765
957	22.7094	744
960	22.8004	751
963	22.8914	761
966	22.9825	811
969	23.0735	764
972	23.1645	750
975	23.2556	731
978	23.3466	832
981	23.4376	791
984	23.5287	722
987	23.6197	767
990	23.7108	820
993	23.8018	799
996	23.8928	786
999	23.9839	867
1002	24.0749	840
1005	24.166	882
1008	24.257	910
1011	24.348	796
1014	24.4391	854
1017	24.5301	827
1020	24.6212	792
1023	24.7122	798
1026	24.8032	833
1029	24.8943	793
1032	24.9853	810
1035	25.0764	839
1038	25.1674	836
1041	25.2585	847
1044	25.3495	846
1047	25.4406	848
1050	25.5316	819
1053	25.6227	824
1056	25.7137	836
1059	25.8048	901
1062	25.8958	877
1065	25.9869	825
1068	26.0779	831
1071	26.169	878
1074	26.2601	839
1077	26.3511	868
1080	26.4422	895
1083	26.5332	850
1086	26.6243	856
1089	26.7153	823
1092	26.8064	875
1095	26.8975	860
1098	26.9885	962
1101	27.0796	826
1104	27.1707	885
1107	27.2617	832
1110	27.3528	867
1113	27.4438	946
1116	27.5349	917
1119	27.626	884
1122	27.717	895
1125	27.8081	960
1128	27.8992	861
1131	27.9903	912
1134	28.0813	897
1137	28.1724	906
1140	28.2635	918
1143	28.3545	819
1146	28.4456	919
1149	28.5367	877
1152	28.6278	941
1155	28.7188	970
1158	28.8099	907
1161	28.901	928
1164	28.9921	979
1167	29.0832	960
1170	29.1742	966
1173	29.2653	939
1176	29.3564	923
1179	29.4475	926
1182	29.5386	946
1185	29.6296	948
1188	29.7207	931
1191	29.8118	986
1194	29.9029	967
1197	29.994	955
1200	30.0851	934
1203	30.1762	966
1206	30.2672	989
1209	30.3583	909
1212	30.4494	972
1215	30.5405	969
1218	30.6316	932
1221	30.7227	976
1224	30.8138	981
1227	30.9049	936
1230	30.996	965
1233	31.0871	973
1236	31.1782	993
1239	31.2693	1046
1242	31.3604	1017
1245	31.4515	1009
1248	31.5425	992
1251	31.6336	1012
1254	31.7247	1051
1257	31.8158	935
1260	31.9069	994
1263	31.998	1026
1266	32.0891	1018
1269	32.1802	990
1272	32.2714	1016
1275	32.3625	1028
1278	32.4536	1012
1281	32.5447	1073
1284	32.6358	1104
1287	32.7269	1063
1290	32.818	1059
1293	32.9091	1129
1296	33.0002	1118
1299	33.0913	1271
1302	33.1824	1247
1305	33.2735	1236
1308	33.3646	1182
1311	33.4557	1124
1314	33.5469	1087
1317	33.638	1048
1320	33.7291	1085
1323	33.8202	1030
1326	33.9113	1080
1329	34.0024	1068
1332	34.0935	1054
1335	34.1846	1034
1338	34.2758	1120
1341	34.3669	1087
1344	34.458	1091
1347	34.5491	1159
1350	34.6402	1122
1353	34.7314	1103
1356	34.8225	1128
1359	34.9136	1089
1362	35.0047	1111
1365	35.0958	1127
1368	35.1869	1149
1371	35.2781	1138
1374	35.3692	1117
1377	35.4603	1128
1380	35.5514	1209
1383	35.6426	1192
1386	35.7337	1280
1389	35.8248	1327
1392	35.9159	1197
1395	36.0071	1212
1398	36.0982	1137
1401	36.1893	1085
1404	36.2804	1179
1407	36.3716	1132
1410	36.4627	1086
1413	36.5538	1198
1416	36.645	1147
1419	36.7361	1208
1422	36.8272	1149
1425	36.9183	1195
1428	37.0095	1207
1431	37.1006	1209
1434	37.1917	1198
1437	37.2829	1207
1440	37.374	1133
1443	37.4651	1112
1446	37.5563	1162
1449	37.6474	1149
1452	37.7385	1221
1455	37.8297	1140
1458	37.9208	1157
1461	38.0119	1155
1464	38.1031	1154
1467	38.1942	1162
1470	38.2853	1150
1473	38.3765	1153
1476	38.4676	1203
1479	38.5588	1176
1482	38.6499	1141
1485	38.741	1165
1488	38.8322	1156
1491	38.9233	1190
1494	39.0144	1213
1497	39.1056	1231
1500	39.1967	1202
1503	39.2879	1222
1506	39.379	1197
1509	39.4702	1212
1512	39.5613	1243
1515	39.6524	1253
1518	39.7436	1127
1521	39.8347	1173
1524	39.9259	1237
1527	40.017	1243
1530	40.1081	1253
1533	40.1993	1199
1536	40.2904	1278
1539	40.3816	1317
1542	40.4727	1248
1545	40.5639	1337
1548	40.655	1216
1551	40.7462	1280
1554	40.8373	1330
1557	40.9285	1362
1560	41.0196	1310
1563	41.1107	1313
1566	41.2019	1286
1569	41.293	1319
1572	41.3842	1242
1575	41.4753	1235
1578	41.5665	1296
1581	41.6576	1249
1584	41.7488	1256
1587	41.8399	1351
1590	41.9311	1220
1593	42.0222	1223
1596	42.1134	1279
1599	42.2045	1299
1602	42.2957	1228
1605	42.3868	1347
1608	42.478	1270
1611	42.5691	1287
1614	42.6603	1336
1617	42.7514	1306
1620	42.8426	1255
1623	42.9337	1373
1626	43.0249	1259
1629	43.116	1258
1632	43.2072	1238
1635	43.2984	1273
1638	43.3895	1264
1641	43.4807	1280
1644	43.5718	1226
1647	43.663	1272
1650	43.7541	1212
1653	43.8453	1352
1656	43.9364	1247
1659	44.0276	1255
1662	44.1187	1303
1665	44.2099	1306
1668	44.301	1309
1671	44.3922	1287
1674	44.4834	1298
1677	44.5745	1301
1680	44.6657	1317
1683	44.7568	1309
1686	44.848	1316
1689	44.9391	1291
1692	45.0303	1295
1695	45.1214	1352
1698	45.2126	1344
1701	45.3038	1474
1704	45.3949	1363
1707	45.4861	1308
1710	45.5772	1382
1713	45.6684	1308
1716	45.7595	1367
1719	45.8507	1314
1722	45.9419	1351
1725	46.033	1379
1728	46.1242	1360
1731	46.2153	1354
1734	46.3065	1387
1737	46.3976	1329
1740	46.4888	1361
1743	46.58	1364
1746	46.6711	1452
1749	46.7623	1389
1752	46.8534	1363
1755	46.9446	1353
1758	47.0358	1402
1761	47.1269	1411
1764	47.2181	1410
1767	47.3092	1417
1770	47.4004	1346
1773	47.4915	1358
1776	47.5827	1370
1779	47.6739	1414
1782	47.765	1447
1785	47.8562	1364
1788	47.9473	1426
1791	48.0385	1395
1794	48.1297	1425
1797	48.2208	1433
1800	48.312	1431
1803	48.4032	1370
1806	48.4943	1370
1809	48.5855	1374
1812	48.6766	1478
1815	48.7678	1356
1818	48.859	1413
1821	48.9501	1511
1824	49.0413	1467
1827	49.1325	1350
1830	49.2236	1410
1833	49.3148	1560
1836	49.406	1463
1839	49.4972	1523
1842	49.5883	1558
1845	49.6795	1578
1848	49.7707	1453
1851	49.8619	1418
1854	49.953	1376
1857	50.0442	1428
1860	50.1354	1503
1863	50.2266	1444
1866	50.3178	1337
1869	50.4089	1462
1872	50.5001	1405
1875	50.5913	1462
1878	50.6825	1412
1881	50.7737	1418
1884	50.8649	1447
1887	50.9561	1411
1890	51.0473	1484
1893	51.1385	1446
1896	51.2297	1455
1899	51.3209	1497
1902	51.4121	1360
1905	51.5033	1495
1908	51.5945	1377
1911	51.6857	1494
1914	51.7769	1412
1917	51.8682	1490
1920	51.9594	1542
1923	52.0506	1505
1926	52.1418	1504
1929	52.233	1498
1932	52.3243	1458
1935	52.4155	1482
1938	52.5067	1448
1941	52.598	1480
1944	52.6892	1472
1947	52.7805	1490
1950	52.8717	1482
1953	52.9629	1558
1956	53.0542	1546
1959	53.1454	1521
1962	53.2367	1537
1965	53.328	1534
1968	53.4192	1504
1971	53.5105	1555
1974	53.6017	1658
1977	53.693	1671
1980	53.7843	1611
1983	53.8756	1573
1986	53.9668	1649
1989	54.0581	1631
1992	54.1494	1729
1995	54.2407	1653
1998	54.332	1636
2001	54.4233	1604
2004	54.5146	1578
2007	54.6059	1548
2010	54.6972	1579
2013	54.7885	1519
2016	54.8798	1554
2019	54.9712	1596
2022	55.0625	1541
2025	55.1538	1527
2028	55.2451	1626
2031	55.3365	1525
2034	55.4278	1492
2037	55.5192	1484
2040	55.6105	1559
2043	55.7019	1580
2046	55.7932	1572
2049	55.8846	1598
2052	55.9759	1559
2055	56.0673	1530
2058	56.1587	1608
2061	56.25	1594
2064	56.3414	1497
2067	56.4328	1541
2070	56.5242	1540
2073	56.6156	1554
2076	56.707	1568
2079	56.7984	1456
2082	56.8898	1574
2085	56.9812	1568
2088	57.0726	1593
2091	57.164	1586
2094	57.2555	1534
2097	57.3469	1575
2100	57.4383	1600
2103	57.5297	1703
2106	57.6212	1652
2109	57.7126	1543
2112	57.8041	1612
2115	57.8955	1681
2118	57.987	1590
2121	58.0784	1617
2124	58.1699	1627
2127	58.2613	1657
2130	58.3528	1547
2133	58.4443	1625
2136	58.5357	1639
2139	58.6272	1619
2142	58.7187	1604
2145	58.8102	1549
2148	58.9016	1631
2151	58.9931	1533
2154	59.0846	1597
2157	59.1761	1704
2160	59.2676	1612
2163	59.3591	1629
2166	59.4506	1615
2169	59.5421	1692
2172	59.6336	1719
2175	59.7251	1653
2178	59.8166	1654
2181	59.9081	1623
2184	59.9996	1631
2187	60.0911	1593
2190	60.1826	1597
2193	60.2741	1583
2196	60.3657	1560
2199	60.4572	1562
2202	60.5487	1617
2205	60.6402	1605
2208	60.7318	1665
2211	60.8233	1569
2214	60.9148	1594
2217	61.0063	1606
2220	61.0979	1687
2223	61.1894	1593
2226	61.281	1538
2229	61.3725	1647
2232	61.464	1626
2235	61.5556	1629
2238	61.6471	1627
2241	61.7387	1704
2244	61.8302	1736
2247	61.9217	1636
2250	62.0133	1745
2253	62.1048	1699
2256	62.1964	1782
2259	62.2879	1758
2262	62.3795	1677
2265	62.471	1828
2268	62.5626	1697
2271	62.6541	1734
2274	62.7457	1742
2277	62.8373	1683
2280	62.9288	1743
2283	63.0204	1639
2286	63.1119	1719
2289	63.2035	1778
2292	63.295	1700
2295	63.3866	1753
2298	63.4781	1662
2301	63.5697	1653
2304	63.6613	1701
2307	63.7528	1691
2310	63.8444	1756
2313	63.9359	1767
2316	64.0275	1755
2319	64.119	1874
2322	64.2106	1772
2325	64.3022	1747
2328	64.3937	1670
2331	64.4853	1756
2334	64.5768	1718
2337	64.6684	1674
2340	64.7599	1721
2343	64.8515	1687
2346	64.943	1729
2349	65.0346	1718
2352	65.1262	1636
2355	65.2177	1741
2358	65.3093	1659
2361	65.4008	1662
2364	65.4924	1575
2367	65.5839	1662
2370	65.6755	1653
2373	65.767	1687
2376	65.8585	1682
2379	65.9501	1716
2382	66.0416	1677
2385	66.1332	1694
2388	66.2247	1634
2391	66.3163	1650
2394	66.4078	1701
2397	66.4993	1791
2400	66.5909	1729
2403	66.6824	1687
2406	66.7739	1685
2409	66.8655	1670
2412	66.957	1657
2415	67.0485	1702
2418	67.14	1682
2421	67.2316	1703
2424	67.3231	1740
2427	67.4146	1737
2430	67.5061	1725
2433	67.5976	1725
2436	67.6891	1736
2439	67.7806	1644
2442	67.8722	1635
2445	67.9637	1718
2448	68.0552	1777
2451	68.1467	1737
2454	68.2382	1665
2457	68.3297	1684
2460	68.4212	1792
2463	68.5126	1756
2466	68.6041	1718
2469	68.6956	1695
2472	68.7871	1746
2475	68.8786	1714
2478	68.9701	1742
2481	69.0615	1682
2484	69.153	1752
2487	69.2445	1745
2490	69.3359	1771
2493	69.4274	1759
2496	69.5189	1720
2499	69.6103	1722
2502	69.7018	1809
2505	69.7932	1782
2508	69.8847	1747
2511	69.9761	1724
2514	70.0676	1832
2517	70.159	1777
2520	70.2505	1829
2523	70.3419	1746
2526	70.4334	1809
2529	70.5248	1779
2532	70.6162	1732
2535	70.7077	1764
2538	70.7991	1737
2541	70.8906	1753
2544	70.982	1772
2547	71.0735	1727
2550	71.1649	1796
2553	71.2563	1802
2556	71.3478	1747
2559	71.4392	1783
2562	71.5307	1793
2565	71.6221	1787
2568	71.7135	1819
2571	71.805	1820
2574	71.8964	1827
2577	71.9879	1829
2580	72.0793	1789
2583	72.1708	1754
2586	72.2623	1844
2589	72.3537	1804
2592	72.4452	1833
2595	72.5366	1822
2598	72.6281	1795
2601	72.7196	1849
2604	72.811	1784
2607	72.9025	1731
2610	72.994	1828
2613	73.0855	1769
2616	73.1769	1772
2619	73.2684	1772
2622	73.3599	1791
2625	73.4514	1766
2628	73.5429	1776
2631	73.6344	1767
2634	73.7259	1897
2637	73.8174	1752
2640	73.9089	1731
2643	74.0005	1871
2646	74.092	1679
2649	74.1835	1741
2652	74.2751	1811
2655	74.3666	1764
2658	74.4581	1763
2661	74.5497	1776
2664	74.6413	1756
2667	74.7328	1725
2670	74.8244	1835
2673	74.916	1847
2676	75.0076	1814
2679	75.0992	1735
2682	75.1907	1727
2685	75.2824	1761
2688	75.374	1783
2691	75.4656	1858
2694	75.5572	1842
2697	75.6488	1723
2700	75.7405	1835
2703	75.8321	1782
2706	75.9238	1765
2709	76.0155	1837
2712	76.1071	1786
2715	76.1988	1784
2718	76.2905	1838
2721	76.3822	1807
2724	76.4739	1736
2727	76.5656	1820
2730	76.6574	1843
2733	76.7491	1786
2736	76.8408	1719
2739	76.9326	1750
2742	77.0243	1764
2745	77.1161	1861
2748	77.2079	1872
2751	77.2997	1780
2754	77.3915	1873
2757	77.4833	1833
2760	77.5751	1858
2763	77.6669	1811
2766	77.7587	1879
2769	77.8506	1873
2772	77.9424	1885
2775	78.0342	1793
2778	78.1261	1876
2781	78.218	1846
2784	78.3098	1925
2787	78.4017	1921
2790	78.4936	1899
2793	78.5855	1838
2796	78.6774	1947
2799	78.7693	1870
2802	78.8612	1917
2805	78.9531	1813
2808	79.0451	1868
2811	79.137	1896
2814	79.2289	1859
2817	79.3209	1822
2820	79.4128	1812
2823	79.5048	1803
2826	79.5968	1889
2829	79.6888	1924
2832	79.7807	1943
2835	79.8727	1821
2838	79.9647	1895
2841	80.0567	1879
2844	80.1487	1868
2847	80.2407	1806
2850	80.3328	1841
2853	80.4248	1927
2856	80.5168	1873
2859	80.6088	1908
2862	80.7009	1861
2865	80.7929	1901
2868	80.885	1896
2871	80.977	1835
2874	81.0691	1874
2877	81.1612	1911
2880	81.2532	1842
2883	81.3453	1836
2886	81.4374	1879
2889	81.5295	1845
2892	81.6216	1854
2895	81.7137	1833
2898	81.8058	1763
2901	81.8979	1852
2904	81.99	1863
2907	82.0821	1897
2910	82.1742	1885
2913	82.2664	1824
2916	82.3585	1892
2919	82.4506	1970
2922	82.5428	1929
2925	82.6349	1913
2928	82.7271	1878
2931	82.8192	1962
2934	82.9114	1879
2937	83.0035	1914
2940	83.0957	1927
2943	83.1879	1905
2946	83.28	1873
2949	83.3722	1962
2952	83.4644	1960
2955	83.5566	1907
2958	83.6487	1859
2961	83.7409	2025
2964	83.8331	1910
2967	83.9253	1882
2970	84.0175	1946
2973	84.1097	1894
2976	84.2019	1953
2979	84.2941	1954
2982	84.3863	1975
2985	84.4785	1954
2988	84.5708	1968
2991	84.663	1914
2994	84.7552	1869
2997	84.8474	1907
3000	84.9396	1990
3003	85.0319	1942
3006	85.1241	1976
3009	85.2163	1973
3012	85.3085	1937
3015	85.4008	1955
3018	85.493	1883
3021	85.5853	1900
3024	85.6775	1894
3027	85.7697	1942
3030	85.862	1886
3033	85.9542	1904
3036	86.0465	1886
3039	86.1387	1817
3042	86.231	1895
3045	86.3232	1941
3048	86.4155	1965
3051	86.5077	1859
3054	86.6	1920
3057	86.6922	1853
3060	86.7845	1984
3063	86.8768	1890
3066	86.969	1990
3069	87.0613	1867
3072	87.1535	1956
3075	87.2458	1857
3078	87.3381	1971
3081	87.4303	1928
3084	87.5226	1912
3087	87.6148	1996
3090	87.7071	1977
3093	87.7994	1968
3096	87.8916	1939
3099	87.9839	1926
3102	88.0762	1997
3105	88.1684	1893
3108	88.2607	1882
3111	88.3529	1911
3114	88.4452	2007
3117	88.5375	1983
3120	88.6297	1997
3123	88.722	1999
3126	88.8143	1940
3129	88.9065	1987
3132	88.9988	1930
3135	89.0911	1925
3138	89.1833	2026
3141	89.2756	1967
3144	89.3679	1871
3147	89.4601	1904
3150	89.5524	1956
3153	89.6447	1916
3156	89.7369	1878
3159	89.8292	1914
3162	89.9215	1958
3165	90.0138	1844
3168	90.106	1874
3171	90.1983	1993
3174	90.2906	1810
3177	90.3829	1966
3180	90.4751	1926
3183	90.5674	1930
3186	90.6597	1979
3189	90.752	1907
3192	90.8443	1972
3195	90.9366	1894
3198	91.0289	1908
3201	91.1212	1867
3204	91.2135	1944
3207	91.3057	1915
3210	91.398	1934
3213	91.4903	1936
3216	91.5827	1967
3219	91.675	1932
3222	91.7673	1886
3225	91.8596	1936
3228	91.9519	1987
3231	92.0442	1861
3234	92.1365	1957
3237	92.2288	1943
3240	92.3212	1946
3243	92.4135	1987
3246	92.5058	2020
3249	92.5981	1944
3252	92.6905	1961
3255	92.7828	2043
3258	92.8751	2040
3261	92.9675	1930
3264	93.0598	1972
3267	93.1522	1905
3270	93.2445	1907
3273	93.3369	1901
3276	93.4292	1974
3279	93.5216	1973
3282	93.614	2035
3285	93.7063	1972
3288	93.7987	1913
3291	93.8911	2005
3294	93.9835	1880
3297	94.0758	1945
3300	94.1682	1919
3303	94.2606	1959
3306	94.353	1984
3309	94.4454	1976
3312	94.5378	1966
3315	94.6302	1957
3318	94.7226	1944
3321	94.815	2034
3324	94.9075	1906
3327	94.9999	1976
3330	95.0923	1983
3333	95.1847	1887
3336	95.2772	1972
3339	95.3696	1977
3342	95.4621	1932
3345	95.5545	1973
3348	95.6469	2008
3351	95.7394	1948
3354	95.8319	1979
3357	95.9243	1989
3360	96.0168	2029
3363	96.1093	2004
3366	96.2017	1858
3369	96.2942	1929
3372	96.3867	2024
3375	96.4792	1931
3378	96.5717	1950
3381	96.6641	1954
3384	96.7566	2042
3387	96.8491	1902
3390	96.9416	1986
3393	97.0341	1973
3396	97.1266	1992
3399	97.2191	1968
3402	97.3116	1927
3405	97.4042	1953
3408	97.4967	1934
3411	97.5892	2012
3414	97.6817	2000
3417	97.7742	1955
3420	97.8668	2017
3423	97.9593	1940
3426	98.0518	1931
3429	98.1443	1985
3432	98.2369	2002
3435	98.3294	1952
3438	98.4219	2010
3441	98.5145	1982
3444	98.607	2007
3447	98.6995	1947
3450	98.7921	1985
3453	98.8846	1983
3456	98.9772	2039
3459	99.0697	1955
3462	99.1623	1959
3465	99.2548	1978
3468	99.3474	1992
3471	99.4399	1924
3474	99.5325	2015
3477	99.625	1953
3480	99.7176	2015
3483	99.8101	2054
3486	99.9027	2004
3489	99.9952	2024
3492	100.088	1997
3495	100.18	2031
3498	100.273	2066
3501	100.365	1970
3504	100.458	2030
3507	100.551	2005
3510	100.643	2055
3513	100.736	2036
3516	100.828	2017
3519	100.921	1995
3522	101.013	1973
3525	101.106	1997
3528	101.198	1975
3531	101.291	2053
3534	101.384	1991
3537	101.476	2042
3540	101.569	2081
3543	101.661	2056
3546	101.754	2067
3549	101.846	2048
3552	101.939	2047
3555	102.031	2135
3558	102.124	1985
3561	102.217	2042
3564	102.309	2146
3567	102.402	2120
3570	102.494	1984
3573	102.587	2071
3576	102.679	2014
3579	102.772	2046
3582	102.864	2006
3585	102.957	2027
3588	103.049	2123
3591	103.142	2088
3594	103.235	2002
3597	103.327	2050
3600	103.42	2026
3603	103.512	2027
3606	103.605	1989
3609	103.697	2062
3612	103.79	2040
3615	103.882	2026
3618	103.975	1993
3621	104.067	2088
3624	104.16	1990
3627	104.252	2108
3630	104.345	2066
3633	104.437	2019
3636	104.53	2042
3639	104.622	2023
3642	104.715	2021
3645	104.807	2071
3648	104.9	2017
3651	104.992	2117
3654	105.085	2067
3657	105.177	1999
3660	105.27	1947
3663	105.362	2073
3666	105.455	2082
3669	105.547	2070
3672	105.64	1947
3675	105.732	2037
3678	105.825	2024
3681	105.917	2160
3684	106.009	2041
3687	106.102	2037
3690	106.194	2044
3693	106.287	2050
3696	106.379	2021
3699	106.472	2018
3702	106.564	2027
3705	106.656	2121
3708	106.749	2117
3711	106.841	2140
3714	106.934	2005
3717	107.026	2090
3720	107.119	2073
3723	107.211	2037
3726	107.303	2083
3729	107.396	2123
3732	107.488	2118
3735	107.58	2024
3738	107.673	2020
3741	107.765	2069
3744	107.858	2002
3747	107.95	2036
3750	108.042	2168
3753	108.135	2120
3756	108.227	2129
3759	108.319	2114
3762	108.412	2020
3765	108.504	2082
3768	108.596	2228
3771	108.689	2085
3774	108.781	2076
3777	108.873	2128
3780	108.966	2054
3783	109.058	2113
3786	109.15	2088
3789	109.243	2150
3792	109.335	2047
3795	109.427	2115
3798	109.52	2183
3801	109.612	2097
3804	109.704	2064
3807	109.797	2248
3810	109.889	2151
3813	109.981	2081
3816	110.073	2121
3819	110.166	2179
3822	110.258	2201
3825	110.35	2139
3828	110.443	2223
3831	110.535	2141
3834	110.627	2203
3837	110.719	2247
3840	110.812	2160
3843	110.904	2128
3846	110.996	2118
3849	111.089	2258
3852	111.181	2170
3855	111.273	2215
3858	111.365	2245
3861	111.458	2132
3864	111.55	2158
3867	111.642	2230
3870	111.734	2247
3873	111.827	2249
3876	111.919	2163
3879	112.011	2169
3882	112.103	2132
3885	112.196	2187
3888	112.288	2109
3891	112.38	2146
3894	112.472	2112
3897	112.565	2167
3900	112.657	2138
3903	112.749	2144
3906	112.841	2085
3909	112.934	2193
3912	113.026	2100
3915	113.118	2129
3918	113.21	2135
3921	113.303	2134
3924	113.395	2105
3927	113.487	2109
3930	113.579	2099
3933	113.672	2100
3936	113.764	2159
3939	113.856	2129
3942	113.948	2126
3945	114.041	2147
3948	114.133	2130
3951	114.225	2122
3954	114.318	2100
3957	114.41	2167
3960	114.503	2207
3963	114.595	2184
3966	114.687	2194
3969	114.78	2335
3972	114.872	2399
3975	114.965	2493
3978	115.057	2503
3981	115.149	2465
3984	115.242	2201
3987	115.334	1830
3990	115.427	1414
3993	115.519	1045
3996	115.612	743
3999	115.704	317
4002	115.796	43
4005	115.889	31
4008	115.981	26
4011	116.074	18
4014	116.166	14
4017	116.258	15
4020	116.351	9
4023	116.443	7
4026	116.536	11
4029	116.628	7
4032	116.721	5
4035	116.813	3
4038	116.905	6
4041	116.998	6
4044	117.09	1
4047	117.183	6
4050	117.275	4
4053	117.367	5
4056	117.46	2
4059	117.552	0
4062	117.645	1
4065	117.737	0
4068	117.83	0
4071	117.922	0
4074	118.014	0
4077	118.107	0
4080	118.199	1
4083	118.292	0
4086	118.384	0
4089	118.476	0
4092	118.569	1
4095	118.661	0