File: RED MUD SB_XRD.txt
Index	X	Acquisition
0	-6.31123	0
3	-6.22028	4
6	-6.12933	4
9	-6.03837	2
12	-5.94742	8
15	-5.85647	1
18	-5.76551	3
21	-5.67456	2
24	-5.5836	2
27	-5.49265	4
30	-5.4017	2
33	-5.31074	4
36	-5.21979	2
39	-5.12884	0
42	-5.03788	3
45	-4.94693	3
48	-4.85597	1
51	-4.76502	1
54	-4.67407	0
57	-4.58311	3
60	-4.49216	3
63	-4.40121	1
66	-4.31025	1
69	-4.2193	3
72	-4.12834	4
75	-4.03739	3
78	-3.94644	6
81	-3.85548	3
84	-3.76453	5
87	-3.67358	3
90	-3.58262	3
93	-3.49167	5
96	-3.40071	8
99	-3.30976	7
102	-3.21881	1
105	-3.12785	2
108	-3.0369	2
111	-2.94595	2
114	-2.85499	5
117	-2.76404	3
120	-2.67308	4
123	-2.58213	1
126	-2.49118	3
129	-2.40022	3
132	-2.30927	3
135	-2.21832	3
138	-2.12736	4
141	-2.03641	2
144	-1.94545	1
147	-1.8545	4
150	-1.76355	5
153	-1.67259	1
156	-1.58164	4
159	-1.49069	4
162	-1.39973	5
165	-1.30878	7
168	-1.21782	2
171	-1.12687	3
174	-1.03592	4
177	-0.944963	4
180	-0.854009	6
183	-0.763055	3
186	-0.672102	5
189	-0.581148	3
192	-0.490194	5
195	-0.39924	0
198	-0.308287	7
201	-0.217333	2
204	-0.126379	7
207	-0.0354253	11
210	0.0555284	11
213	0.146482	11
216	0.237436	7
219	0.32839	5
222	0.419344	5
225	0.510297	7
228	0.601251	4
231	0.692205	10
234	0.783159	10
237	0.874113	6
240	0.965067	10
243	1.05602	11
246	1.14697	10
249	1.23793	7
252	1.32888	16
255	1.41984	30
258	1.51079	110
261	1.60174	193
264	1.6927	214
267	1.78365	210
270	1.87461	211
273	1.96556	210
276	2.05652	211
279	2.14747	233
282	2.23842	205
285	2.32938	239
288	2.42033	240
291	2.51129	233
294	2.60224	182
297	2.6932	223
300	2.78415	230
303	2.87511	224
306	2.96606	262
309	3.05702	251
312	3.14797	263
315	3.23893	224
318	3.32988	244
321	3.42084	217
324	3.51179	214
327	3.60275	236
330	3.69371	260
333	3.78466	255
336	3.87562	276
339	3.96657	257
342	4.05753	255
345	4.14849	238
348	4.23944	268
351	4.3304	282
354	4.42136	277
357	4.51231	264
360	4.60327	263
363	4.69423	297
366	4.78518	237
369	4.87614	274
372	4.9671	279
375	5.05806	285
378	5.14901	306
381	5.23997	271
384	5.33093	281
387	5.42189	253
390	5.51285	260
393	5.6038	264
396	5.69476	281
399	5.78572	266
402	5.87668	271
405	5.96764	278
408	6.0586	257
411	6.14956	258
414	6.24052	287
417	6.33148	282
420	6.42244	279
423	6.5134	272
426	6.60436	297
429	6.69532	263
432	6.78628	278
435	6.87724	305
438	6.9682	302
441	7.05916	279
444	7.15012	353
447	7.24108	310
450	7.33204	348
453	7.42301	323
456	7.51397	310
459	7.60493	346
462	7.69589	343
465	7.78685	366
468	7.87782	351
471	7.96878	373
474	8.05974	342
477	8.15071	318
480	8.24167	359
483	8.33264	331
486	8.4236	355
489	8.51456	367
492	8.60553	351
495	8.69649	348
498	8.78746	384
501	8.87842	424
504	8.96939	363
507	9.06036	399
510	9.15132	368
513	9.24229	390
516	9.33325	353
519	9.42422	380
522	9.51519	387
525	9.60616	389
528	9.69712	407
531	9.78809	398
534	9.87906	438
537	9.97003	404
540	10.061	427
543	10.152	397
546	10.2429	386
549	10.3339	437
552	10.4249	443
555	10.5158	417
558	10.6068	458
561	10.6978	434
564	10.7888	405
567	10.8797	397
570	10.9707	450
573	11.0617	380
576	11.1526	442
579	11.2436	452
582	11.3346	389
585	11.4256	422
588	11.5165	440
591	11.6075	409
594	11.6985	487
597	11.7895	449
600	11.8804	431
603	11.9714	436
606	12.0624	496
609	12.1534	465
612	12.2443	469
615	12.3353	458
618	12.4263	449
621	12.5173	497
624	12.6082	443
627	12.6992	448
630	12.7902	422
633	12.8812	467
636	12.9722	469
639	13.0631	478
642	13.1541	517
645	13.2451	483
648	13.3361	472
651	13.427	500
654	13.518	458
657	13.609	497
660	13.7	482
663	13.791	498
666	13.882	513
669	13.9729	456
672	14.0639	468
675	14.1549	461
678	14.2459	536
681	14.3369	498
684	14.4279	494
687	14.5188	498
690	14.6098	502
693	14.7008	526
696	14.7918	494
699	14.8828	563
702	14.9738	501
705	15.0648	509
708	15.1557	523
711	15.2467	498
714	15.3377	521
717	15.4287	489
720	15.5197	528
723	15.6107	498
726	15.7017	517
729	15.7927	509
732	15.8837	506
735	15.9747	536
738	16.0656	523
741	16.1566	559
744	16.2476	535
747	16.3386	525
750	16.4296	533
753	16.5206	538
756	16.6116	500
759	16.7026	524
762	16.7936	516
765	16.8846	563
768	16.9756	590
771	17.0666	535
774	17.1576	554
777	17.2486	588
780	17.3396	596
783	17.4306	579
786	17.5216	581
789	17.6126	567
792	17.7036	564
795	17.7946	575
798	17.8856	565
801	17.9766	591
804	18.0676	608
807	18.1586	606
810	18.2496	561
813	18.3406	578
816	18.4316	533
819	18.5226	606
822	18.6136	603
825	18.7046	617
828	18.7956	606
831	18.8866	607
834	18.9776	604
837	19.0686	631
840	19.1596	638
843	19.2507	591
846	19.3417	650
849	19.4327	624
852	19.5237	654
855	19.6147	634
858	19.7057	640
861	19.7967	665
864	19.8877	618
867	19.9787	678
870	20.0698	657
873	20.1608	662
876	20.2518	688
879	20.3428	674
882	20.4338	659
885	20.5248	666
888	20.6158	700
891	20.7069	679
894	20.7979	687
897	20.8889	687
900	20.9799	655
903	21.0709	651
906	21.162	739
909	21.253	653
912	21.344	756
915	21.435	724
918	21.526	709
921	21.6171	700
924	21.7081	742
927	21.7991	663
930	21.8901	720
933	21.9812	736
936	22.0722	728
939	22.1632	699
942	22.2542	740
945	22.3453	709
948	22.4363	761
951	22.5273	755
954	22.6184	715
957	22.7094	745
960	22.8004	705
963	22.8914	742
966	22.9825	708
969	23.0735	739
972	23.1645	730
975	23.2556	710
978	23.3466	742
981	23.4376	767
984	23.5287	782
987	23.6197	766
990	23.7108	756
993	23.8018	776
996	23.8928	745
999	23.9839	796
1002	24.0749	845
1005	24.166	864
1008	24.257	834
1011	24.348	810
1014	24.4391	820
1017	24.5301	826
1020	24.6212	776
1023	24.7122	739
1026	24.8032	761
1029	24.8943	782
1032	24.9853	803
1035	25.0764	842
1038	25.1674	781
1041	25.2585	781
1044	25.3495	813
1047	25.4406	840
1050	25.5316	852
1053	25.6227	813
1056	25.7137	802
1059	25.8048	857
1062	25.8958	803
1065	25.9869	808
1068	26.0779	826
1071	26.169	840
1074	26.2601	812
1077	26.3511	831
1080	26.4422	886
1083	26.5332	869
1086	26.6243	896
1089	26.7153	849
1092	26.8064	832
1095	26.8975	888
1098	26.9885	828
1101	27.0796	830
1104	27.1707	847
1107	27.2617	890
1110	27.3528	862
1113	27.4438	875
1116	27.5349	897
1119	27.626	816
1122	27.717	875
1125	27.8081	880
1128	27.8992	875
1131	27.9903	870
1134	28.0813	869
1137	28.1724	903
1140	28.2635	893
1143	28.3545	877
1146	28.4456	939
1149	28.5367	926
1152	28.6278	892
1155	28.7188	881
1158	28.8099	879
1161	28.901	910
1164	28.9921	872
1167	29.0832	874
1170	29.1742	937
1173	29.2653	870
1176	29.3564	930
1179	29.4475	941
1182	29.5386	894
1185	29.6296	916
1188	29.7207	931
1191	29.8118	901
1194	29.9029	966
1197	29.994	919
1200	30.0851	949
1203	30.1762	912
1206	30.2672	986
1209	30.3583	950
1212	30.4494	962
1215	30.5405	908
1218	30.6316	953
1221	30.7227	970
1224	30.8138	969
1227	30.9049	987
1230	30.996	1000
1233	31.0871	973
1236	31.1782	952
1239	31.2693	970
1242	31.3604	999
1245	31.4515	973
1248	31.5425	978
1251	31.6336	967
1254	31.7247	948
1257	31.8158	987
1260	31.9069	1040
1263	31.998	985
1266	32.0891	1014
1269	32.1802	1036
1272	32.2714	1000
1275	32.3625	1082
1278	32.4536	1012
1281	32.5447	1049
1284	32.6358	1076
1287	32.7269	1092
1290	32.818	1082
1293	32.9091	1096
1296	33.0002	1165
1299	33.0913	1203
1302	33.1824	1190
1305	33.2735	1158
1308	33.3646	1100
1311	33.4557	1164
1314	33.5469	1155
1317	33.638	1163
1320	33.7291	1054
1323	33.8202	1034
1326	33.9113	1103
1329	34.0024	1108
1332	34.0935	1064
1335	34.1846	1081
1338	34.2758	1124
1341	34.3669	1100
1344	34.458	1130
1347	34.5491	1117
1350	34.6402	1145
1353	34.7314	1154
1356	34.8225	1022
1359	34.9136	1118
1362	35.0047	1087
1365	35.0958	1098
1368	35.1869	1124
1371	35.2781	1143
1374	35.3692	1227
1377	35.4603	1220
1380	35.5514	1278
1383	35.6426	1313
1386	35.7337	1300
1389	35.8248	1211
1392	35.9159	1179
1395	36.0071	1173
1398	36.0982	1113
1401	36.1893	1150
1404	36.2804	1138
1407	36.3716	1161
1410	36.4627	1106
1413	36.5538	1117
1416	36.645	1177
1419	36.7361	1196
1422	36.8272	1159
1425	36.9183	1173
1428	37.0095	1131
1431	37.1006	1183
1434	37.1917	1113
1437	37.2829	1167
1440	37.374	1163
1443	37.4651	1163
1446	37.5563	1130
1449	37.6474	1213
1452	37.7385	1134
1455	37.8297	1240
1458	37.9208	1184
1461	38.0119	1317
1464	38.1031	1306
1467	38.1942	1311
1470	38.2853	1309
1473	38.3765	1193
1476	38.4676	1145
1479	38.5588	1193
1482	38.6499	1195
1485	38.741	1181
1488	38.8322	1180
1491	38.9233	1191
1494	39.0144	1252
1497	39.1056	1198
1500	39.1967	1183
1503	39.2879	1214
1506	39.379	1271
1509	39.4702	1186
1512	39.5613	1243
1515	39.6524	1223
1518	39.7436	1161
1521	39.8347	1297
1524	39.9259	1245
1527	40.017	1245
1530	40.1081	1223
1533	40.1993	1236
1536	40.2904	1270
1539	40.3816	1283
1542	40.4727	1300
1545	40.5639	1336
1548	40.655	1308
1551	40.7462	1349
1554	40.8373	1319
1557	40.9285	1310
1560	41.0196	1259
1563	41.1107	1235
1566	41.2019	1305
1569	41.293	1324
1572	41.3842	1325
1575	41.4753	1299
1578	41.5665	1272
1581	41.6576	1233
1584	41.7488	1277
1587	41.8399	1315
1590	41.9311	1219
1593	42.0222	1243
1596	42.1134	1264
1599	42.2045	1292
1602	42.2957	1282
1605	42.3868	1336
1608	42.478	1227
1611	42.5691	1281
1614	42.6603	1250
1617	42.7514	1267
1620	42.8426	1263
1623	42.9337	1262
1626	43.0249	1319
1629	43.116	1243
1632	43.2072	1272
1635	43.2984	1277
1638	43.3895	1212
1641	43.4807	1251
1644	43.5718	1278
1647	43.663	1294
1650	43.7541	1236
1653	43.8453	1326
1656	43.9364	1345
1659	44.0276	1273
1662	44.1187	1320
1665	44.2099	1271
1668	44.301	1391
1671	44.3922	1354
1674	44.4834	1354
1677	44.5745	1240
1680	44.6657	1262
1683	44.7568	1304
1686	44.848	1369
1689	44.9391	1308
1692	45.0303	1319
1695	45.1214	1310
1698	45.2126	1361
1701	45.3038	1335
1704	45.3949	1321
1707	45.4861	1327
1710	45.5772	1379
1713	45.6684	1296
1716	45.7595	1350
1719	45.8507	1279
1722	45.9419	1365
1725	46.033	1384
1728	46.1242	1310
1731	46.2153	1377
1734	46.3065	1370
1737	46.3976	1257
1740	46.4888	1458
1743	46.58	1378
1746	46.6711	1420
1749	46.7623	1273
1752	46.8534	1384
1755	46.9446	1360
1758	47.0358	1386
1761	47.1269	1360
1764	47.2181	1369
1767	47.3092	1386
1770	47.4004	1314
1773	47.4915	1492
1776	47.5827	1355
1779	47.6739	1343
1782	47.765	1328
1785	47.8562	1332
1788	47.9473	1388
1791	48.0385	1386
1794	48.1297	1361
1797	48.2208	1473
1800	48.312	1392
1803	48.4032	1408
1806	48.4943	1360
1809	48.5855	1425
1812	48.6766	1435
1815	48.7678	1328
1818	48.859	1445
1821	48.9501	1423
1824	49.0413	1456
1827	49.1325	1410
1830	49.2236	1432
1833	49.3148	1474
1836	49.406	1442
1839	49.4972	1487
1842	49.5883	1466
1845	49.6795	1440
1848	49.7707	1452
1851	49.8619	1328
1854	49.953	1446
1857	50.0442	1414
1860	50.1354	1383
1863	50.2266	1417
1866	50.3178	1366
1869	50.4089	1406
1872	50.5001	1365
1875	50.5913	1447
1878	50.6825	1389
1881	50.7737	1396
1884	50.8649	1379
1887	50.9561	1425
1890	51.0473	1426
1893	51.1385	1466
1896	51.2297	1478
1899	51.3209	1410
1902	51.4121	1430
1905	51.5033	1467
1908	51.5945	1429
1911	51.6857	1442
1914	51.7769	1467
1917	51.8682	1392
1920	51.9594	1483
1923	52.0506	1454
1926	52.1418	1453
1929	52.233	1433
1932	52.3243	1501
1935	52.4155	1491
1938	52.5067	1442
1941	52.598	1461
1944	52.6892	1394
1947	52.7805	1509
1950	52.8717	1385
1953	52.9629	1447
1956	53.0542	1514
1959	53.1454	1466
1962	53.2367	1476
1965	53.328	1554
1968	53.4192	1552
1971	53.5105	1529
1974	53.6017	1531
1977	53.693	1500
1980	53.7843	1608
1983	53.8756	1556
1986	53.9668	1656
1989	54.0581	1553
1992	54.1494	1576
1995	54.2407	1551
1998	54.332	1520
2001	54.4233	1517
2004	54.5146	1483
2007	54.6059	1401
2010	54.6972	1518
2013	54.7885	1558
2016	54.8798	1442
2019	54.9712	1469
2022	55.0625	1461
2025	55.1538	1539
2028	55.2451	1457
2031	55.3365	1530
2034	55.4278	1434
2037	55.5192	1470
2040	55.6105	1420
2043	55.7019	1425
2046	55.7932	1559
2049	55.8846	1486
2052	55.9759	1525
2055	56.0673	1532
2058	56.1587	1479
2061	56.25	1564
2064	56.3414	1443
2067	56.4328	1533
2070	56.5242	1432
2073	56.6156	1501
2076	56.707	1546
2079	56.7984	1523
2082	56.8898	1465
2085	56.9812	1513
2088	57.0726	1479
2091	57.164	1475
2094	57.2555	1572
2097	57.3469	1528
2100	57.4383	1537
2103	57.5297	1514
2106	57.6212	1593
2109	57.7126	1470
2112	57.8041	1592
2115	57.8955	1543
2118	57.987	1583
2121	58.0784	1470
2124	58.1699	1571
2127	58.2613	1522
2130	58.3528	1471
2133	58.4443	1475
2136	58.5357	1514
2139	58.6272	1559
2142	58.7187	1590
2145	58.8102	1542
2148	58.9016	1494
2151	58.9931	1526
2154	59.0846	1556
2157	59.1761	1500
2160	59.2676	1472
2163	59.3591	1565
2166	59.4506	1535
2169	59.5421	1530
2172	59.6336	1600
2175	59.7251	1474
2178	59.8166	1538
2181	59.9081	1474
2184	59.9996	1506
2187	60.0911	1527
2190	60.1826	1614
2193	60.2741	1530
2196	60.3657	1478
2199	60.4572	1561
2202	60.5487	1636
2205	60.6402	1529
2208	60.7318	1553
2211	60.8233	1516
2214	60.9148	1565
2217	61.0063	1583
2220	61.0979	1546
2223	61.1894	1491
2226	61.281	1524
2229	61.3725	1523
2232	61.464	1500
2235	61.5556	1587
2238	61.6471	1468
2241	61.7387	1598
2244	61.8302	1569
2247	61.9217	1602
2250	62.0133	1599
2253	62.1048	1514
2256	62.1964	1612
2259	62.2879	1602
2262	62.3795	1633
2265	62.471	1657
2268	62.5626	1726
2271	62.6541	1616
2274	62.7457	1641
2277	62.8373	1625
2280	62.9288	1679
2283	63.0204	1600
2286	63.1119	1606
2289	63.2035	1570
2292	63.295	1555
2295	63.3866	1629
2298	63.4781	1571
2301	63.5697	1608
2304	63.6613	1684
2307	63.7528	1665
2310	63.8444	1603
2313	63.9359	1683
2316	64.0275	1717
2319	64.119	1637
2322	64.2106	1646
2325	64.3022	1679
2328	64.3937	1560
2331	64.4853	1713
2334	64.5768	1709
2337	64.6684	1571
2340	64.7599	1636
2343	64.8515	1634
2346	64.943	1650
2349	65.0346	1658
2352	65.1262	1577
2355	65.2177	1604
2358	65.3093	1627
2361	65.4008	1615
2364	65.4924	1604
2367	65.5839	1648
2370	65.6755	1558
2373	65.767	1633
2376	65.8585	1507
2379	65.9501	1586
2382	66.0416	1628
2385	66.1332	1642
2388	66.2247	1632
2391	66.3163	1599
2394	66.4078	1643
2397	66.4993	1620
2400	66.5909	1541
2403	66.6824	1574
2406	66.7739	1625
2409	66.8655	1605
2412	66.957	1637
2415	67.0485	1567
2418	67.14	1599
2421	67.2316	1633
2424	67.3231	1625
2427	67.4146	1656
2430	67.5061	1682
2433	67.5976	1590
2436	67.6891	1685
2439	67.7806	1539
2442	67.8722	1564
2445	67.9637	1569
2448	68.0552	1629
2451	68.1467	1693
2454	68.2382	1657
2457	68.3297	1628
2460	68.4212	1602
2463	68.5126	1638
2466	68.6041	1651
2469	68.6956	1653
2472	68.7871	1559
2475	68.8786	1635
2478	68.9701	1628
2481	69.0615	1632
2484	69.153	1627
2487	69.2445	1707
2490	69.3359	1601
2493	69.4274	1606
2496	69.5189	1607
2499	69.6103	1669
2502	69.7018	1638
2505	69.7932	1551
2508	69.8847	1669
2511	69.9761	1661
2514	70.0676	1632
2517	70.159	1616
2520	70.2505	1674
2523	70.3419	1690
2526	70.4334	1659
2529	70.5248	1686
2532	70.6162	1651
2535	70.7077	1626
2538	70.7991	1558
2541	70.8906	1693
2544	70.982	1626
2547	71.0735	1708
2550	71.1649	1646
2553	71.2563	1625
2556	71.3478	1669
2559	71.4392	1658
2562	71.5307	1725
2565	71.6221	1588
2568	71.7135	1702
2571	71.805	1674
2574	71.8964	1757
2577	71.9879	1573
2580	72.0793	1701
2583	72.1708	1678
2586	72.2623	1643
2589	72.3537	1604
2592	72.4452	1697
2595	72.5366	1649
2598	72.6281	1649
2601	72.7196	1677
2604	72.811	1618
2607	72.9025	1630
2610	72.994	1675
2613	73.0855	1635
2616	73.1769	1650
2619	73.2684	1712
2622	73.3599	1657
2625	73.4514	1669
2628	73.5429	1647
2631	73.6344	1610
2634	73.7259	1709
2637	73.8174	1694
2640	73.9089	1690
2643	74.0005	1653
2646	74.092	1605
2649	74.1835	1710
2652	74.2751	1661
2655	74.3666	1696
2658	74.4581	1549
2661	74.5497	1607
2664	74.6413	1681
2667	74.7328	1602
2670	74.8244	1631
2673	74.916	1686
2676	75.0076	1626
2679	75.0992	1655
2682	75.1907	1628
2685	75.2824	1663
2688	75.374	1696
2691	75.4656	1675
2694	75.5572	1611
2697	75.6488	1670
2700	75.7405	1679
2703	75.8321	1679
2706	75.9238	1726
2709	76.0155	1622
2712	76.1071	1642
2715	76.1988	1586
2718	76.2905	1638
2721	76.3822	1743
2724	76.4739	1644
2727	76.5656	1715
2730	76.6574	1635
2733	76.7491	1646
2736	76.8408	1711
2739	76.9326	1607
2742	77.0243	1721
2745	77.1161	1645
2748	77.2079	1765
2751	77.2997	1794
2754	77.3915	1781
2757	77.4833	1844
2760	77.5751	1937
2763	77.6669	2110
2766	77.7587	2219
2769	77.8506	2224
2772	77.9424	2064
2775	78.0342	1875
2778	78.1261	1860
2781	78.218	1713
2784	78.3098	1702
2787	78.4017	1689
2790	78.4936	1768
2793	78.5855	1709
2796	78.6774	1826
2799	78.7693	1712
2802	78.8612	1769
2805	78.9531	1681
2808	79.0451	1779
2811	79.137	1762
2814	79.2289	1771
2817	79.3209	1692
2820	79.4128	1745
2823	79.5048	1742
2826	79.5968	1706
2829	79.6888	1761
2832	79.7807	1661
2835	79.8727	1794
2838	79.9647	1629
2841	80.0567	1677
2844	80.1487	1642
2847	80.2407	1710
2850	80.3328	1738
2853	80.4248	1661
2856	80.5168	1706
2859	80.6088	1788
2862	80.7009	1672
2865	80.7929	1720
2868	80.885	1678
2871	80.977	1712
2874	81.0691	1734
2877	81.1612	1675
2880	81.2532	1734
2883	81.3453	1638
2886	81.4374	1710
2889	81.5295	1613
2892	81.6216	1707
2895	81.7137	1715
2898	81.8058	1709
2901	81.8979	1735
2904	81.99	1792
2907	82.0821	1710
2910	82.1742	1676
2913	82.2664	1759
2916	82.3585	1677
2919	82.4506	1750
2922	82.5428	1760
2925	82.6349	1750
2928	82.7271	1742
2931	82.8192	1736
2934	82.9114	1766
2937	83.0035	1737
2940	83.0957	1817
2943	83.1879	1742
2946	83.28	1736
2949	83.3722	1830
2952	83.4644	1731
2955	83.5566	1785
2958	83.6487	1777
2961	83.7409	1790
2964	83.8331	1725
2967	83.9253	1812
2970	84.0175	1806
2973	84.1097	1820
2976	84.2019	1710
2979	84.2941	1820
2982	84.3863	1826
2985	84.4785	1748
2988	84.5708	1771
2991	84.663	1815
2994	84.7552	1795
2997	84.8474	1749
3000	84.9396	1753
3003	85.0319	1786
3006	85.1241	1749
3009	85.2163	1723
3012	85.3085	1761
3015	85.4008	1702
3018	85.493	1737
3021	85.5853	1727
3024	85.6775	1680
3027	85.7697	1718
3030	85.862	1659
3033	85.9542	1732
3036	86.0465	1746
3039	86.1387	1792
3042	86.231	1717
3045	86.3232	1822
3048	86.4155	1753
3051	86.5077	1772
3054	86.6	1818
3057	86.6922	1697
3060	86.7845	1767
3063	86.8768	1827
3066	86.969	1768
3069	87.0613	1751
3072	87.1535	1809
3075	87.2458	1767
3078	87.3381	1857
3081	87.4303	1753
3084	87.5226	1716
3087	87.6148	1707
3090	87.7071	1779
3093	87.7994	1895
3096	87.8916	1794
3099	87.9839	1801
3102	88.0762	1806
3105	88.1684	1843
3108	88.2607	1735
3111	88.3529	1801
3114	88.4452	1879
3117	88.5375	1810
3120	88.6297	1785
3123	88.722	1816
3126	88.8143	1794
3129	88.9065	1841
3132	88.9988	1758
3135	89.0911	1691
3138	89.1833	1811
3141	89.2756	1776
3144	89.3679	1791
3147	89.4601	1783
3150	89.5524	1723
3153	89.6447	1801
3156	89.7369	1724
3159	89.8292	1796
3162	89.9215	1768
3165	90.0138	1695
3168	90.106	1749
3171	90.1983	1757
3174	90.2906	1786
3177	90.3829	1805
3180	90.4751	1818
3183	90.5674	1809
3186	90.6597	1761
3189	90.752	1754
3192	90.8443	1758
3195	90.9366	1809
3198	91.0289	1770
3201	91.1212	1751
3204	91.2135	1741
3207	91.3057	1756
3210	91.398	1749
3213	91.4903	1814
3216	91.5827	1692
3219	91.675	1758
3222	91.7673	1800
3225	91.8596	1725
3228	91.9519	1729
3231	92.0442	1692
3234	92.1365	1804
3237	92.2288	1786
3240	92.3212	1739
3243	92.4135	1742
3246	92.5058	1684
3249	92.5981	1762
3252	92.6905	1764
3255	92.7828	1778
3258	92.8751	1768
3261	92.9675	1825
3264	93.0598	1769
3267	93.1522	1781
3270	93.2445	1779
3273	93.3369	1822
3276	93.4292	1803
3279	93.5216	1809
3282	93.614	1750
3285	93.7063	1814
3288	93.7987	1800
3291	93.8911	1796
3294	93.9835	1818
3297	94.0758	1849
3300	94.1682	1800
3303	94.2606	1789
3306	94.353	1798
3309	94.4454	1793
3312	94.5378	1731
3315	94.6302	1808
3318	94.7226	1803
3321	94.815	1814
3324	94.9075	1774
3327	94.9999	1786
3330	95.0923	1782
3333	95.1847	1761
3336	95.2772	1778
3339	95.3696	1775
3342	95.4621	1702
3345	95.5545	1751
3348	95.6469	1776
3351	95.7394	1767
3354	95.8319	1855
3357	95.9243	1826
3360	96.0168	1769
3363	96.1093	1756
3366	96.2017	1744
3369	96.2942	1732
3372	96.3867	1826
3375	96.4792	1805
3378	96.5717	1767
3381	96.6641	1830
3384	96.7566	1773
3387	96.8491	1754
3390	96.9416	1762
3393	97.0341	1826
3396	97.1266	1679
3399	97.2191	1825
3402	97.3116	1795
3405	97.4042	1751
3408	97.4967	1855
3411	97.5892	1741
3414	97.6817	1807
3417	97.7742	1791
3420	97.8668	1761
3423	97.9593	1830
3426	98.0518	1724
3429	98.1443	1745
3432	98.2369	1817
3435	98.3294	1846
3438	98.4219	1894
3441	98.5145	1746
3444	98.607	1758
3447	98.6995	1762
3450	98.7921	1885
3453	98.8846	1742
3456	98.9772	1779
3459	99.0697	1760
3462	99.1623	1850
3465	99.2548	1863
3468	99.3474	1773
3471	99.4399	1759
3474	99.5325	1810
3477	99.625	1865
3480	99.7176	1858
3483	99.8101	1795
3486	99.9027	1776
3489	99.9952	1795
3492	100.088	1852
3495	100.18	1838
3498	100.273	1805
3501	100.365	1830
3504	100.458	1837
3507	100.551	1865
3510	100.643	1779
3513	100.736	1857
3516	100.828	1799
3519	100.921	1913
3522	101.013	1922
3525	101.106	1829
3528	101.198	1834
3531	101.291	1858
3534	101.384	1867
3537	101.476	1863
3540	101.569	1794
3543	101.661	1843
3546	101.754	1877
3549	101.846	1848
3552	101.939	1891
3555	102.031	1781
3558	102.124	1857
3561	102.217	1870
3564	102.309	1886
3567	102.402	1824
3570	102.494	1810
3573	102.587	1900
3576	102.679	1846
3579	102.772	1793
3582	102.864	1777
3585	102.957	1844
3588	103.049	1850
3591	103.142	1885
3594	103.235	1789
3597	103.327	1821
3600	103.42	1832
3603	103.512	1856
3606	103.605	1903
3609	103.697	1866
3612	103.79	1796
3615	103.882	1841
3618	103.975	1756
3621	104.067	1870
3624	104.16	1853
3627	104.252	1810
3630	104.345	1781
3633	104.437	1822
3636	104.53	1897
3639	104.622	1777
3642	104.715	1827
3645	104.807	1875
3648	104.9	1867
3651	104.992	1788
3654	105.085	1780
3657	105.177	1720
3660	105.27	1849
3663	105.362	1898
3666	105.455	1769
3669	105.547	1859
3672	105.64	1818
3675	105.732	1775
3678	105.825	1872
3681	105.917	1822
3684	106.009	1892
3687	106.102	1876
3690	106.194	1744
3693	106.287	1870
3696	106.379	1908
3699	106.472	1896
3702	106.564	1953
3705	106.656	1890
3708	106.749	1845
3711	106.841	1855
3714	106.934	1761
3717	107.026	1885
3720	107.119	1902
3723	107.211	1866
3726	107.303	1838
3729	107.396	1896
3732	107.488	1915
3735	107.58	1911
3738	107.673	1958
3741	107.765	1912
3744	107.858	1865
3747	107.95	1857
3750	108.042	1906
3753	108.135	1878
3756	108.227	1853
3759	108.319	1826
3762	108.412	1878
3765	108.504	1848
3768	108.596	1864
3771	108.689	1959
3774	108.781	1857
3777	108.873	1947
3780	108.966	1904
3783	109.058	1869
3786	109.15	1925
3789	109.243	1910
3792	109.335	1949
3795	109.427	1898
3798	109.52	1868
3801	109.612	1862
3804	109.704	1909
3807	109.797	1979
3810	109.889	2010
3813	109.981	1940
3816	110.073	1955
3819	110.166	1943
3822	110.258	1888
3825	110.35	1941
3828	110.443	1937
3831	110.535	1836
3834	110.627	1928
3837	110.719	2051
3840	110.812	1980
3843	110.904	1905
3846	110.996	1961
3849	111.089	1950
3852	111.181	1924
3855	111.273	1958
3858	111.365	2097
3861	111.458	1997
3864	111.55	2073
3867	111.642	2258
3870	111.734	2223
3873	111.827	2221
3876	111.919	2165
3879	112.011	1988
3882	112.103	2085
3885	112.196	1981
3888	112.288	1956
3891	112.38	1936
3894	112.472	1998
3897	112.565	2049
3900	112.657	1875
3903	112.749	1926
3906	112.841	1991
3909	112.934	1961
3912	113.026	1916
3915	113.118	1882
3918	113.21	1879
3921	113.303	1863
3924	113.395	1951
3927	113.487	1920
3930	113.579	1877
3933	113.672	1922
3936	113.764	1901
3939	113.856	1916
3942	113.948	1886
3945	114.041	1828
3948	114.133	1981
3951	114.225	1947
3954	114.318	1967
3957	114.41	1969
3960	114.503	1916
3963	114.595	2018
3966	114.687	1923
3969	114.78	1999
3972	114.872	2142
3975	114.965	2183
3978	115.057	2167
3981	115.149	2107
3984	115.242	2002
3987	115.334	1653
3990	115.427	1327
3993	115.519	995
3996	115.612	660
3999	115.704	268
4002	115.796	37
4005	115.889	20
4008	115.981	25
4011	116.074	11
4014	116.166	14
4017	116.258	14
4020	116.351	8
4023	116.443	6
4026	116.536	9
4029	116.628	12
4032	116.721	12
4035	116.813	6
4038	116.905	5
4041	116.998	4
4044	117.09	4
4047	117.183	7
4050	117.275	4
4053	117.367	4
4056	117.46	3
4059	117.552	2
4062	117.645	0
4065	117.737	0
4068	117.83	0
4071	117.922	0
4074	118.014	0
4077	118.107	1
4080	118.199	0
4083	118.292	1
4086	118.384	3
4089	118.476	0
4092	118.569	1
4095	118.661	0