File: XRD_Sample_Data.txt
5.000000	72059.2
5.060000	72998.3
5.120000	71248.3
5.180000	71767.5
5.240000	72059.2
5.300000	71079.2
5.360000	72240
5.420000	70665
5.480000	69935.8
5.540000	70198.3
5.600000	69329.2
5.660000	69720
5.720000	70717.5
5.780000	68985
5.840000	69947.5
5.900000	69107.5
5.960000	69370
6.020000	69661.7
6.080000	69848.3
6.140000	69025.8
6.200000	69335
6.260000	69498.3
6.320000	69539.2
6.380000	69218.3
6.440000	68985
6.500000	69300
6.560000	68780.8
6.620000	70472.5
6.680000	68950
6.740000	69358.3
6.800000	70116.7
6.860000	69282.5
6.920000	69113.3
6.980000	68559.2
7.040000	68570.8
7.100000	68220.8
7.160000	68075
7.220000	69066.7
7.280000	67345.8
7.340000	68220.8
7.400000	67515
7.460000	67019.2
7.520000	67736.7
7.580000	67246.7
7.640000	67503.3
7.700000	67800.8
7.760000	67001.7
7.820000	68150.8
7.880000	66756.7
7.940000	67386.7
8.000000	66336.7
8.060000	66663.3
8.120000	65485
8.180000	64621.7
8.240000	66115
8.300000	65450
8.360000	65094.2
8.420000	65648.3
8.480000	64948.3
8.540000	65170
8.600000	65712.5
8.660000	64732.5
8.720000	64516.7
8.780000	65712.5
8.840000	65823.3
8.900000	66126.7
8.960000	65385.8
9.020000	65024.2
9.080000	65397.5
9.140000	64872.5
9.200000	65240
9.260000	65059.2
9.320000	65123.3
9.380000	64901.7
9.440000	64744.2
9.500000	63950.8
9.560000	65187.5
9.620000	64726.7
9.680000	65840.8
9.740000	65572.5
9.800000	65216.7
9.860000	65263.3
9.920000	64907.5
9.980000	65070.8
10.04	64464.2
10.1	65053.3
10.16	65140.8
10.22	65129.2
10.28	65199.2
10.34	65030
10.4	64901.7
10.46	65257.5
10.52	65216.7
10.58	64685.8
10.64	65479.2
10.7	65135
10.76	64767.5
10.82	64860.8
10.88	64435
10.94	65560.8
11	65642.5
11.06	66208.3
11.12	65415
11.18	65222.5
11.24	65228.3
11.3	65152.5
11.36	65706.7
11.42	65957.5
11.48	65590
11.54	64621.7
11.6	65887.5
11.66	66231.7
11.72	65940
11.78	66435.8
11.84	65794.2
11.9	64394.2
11.96	65374.2
12.02	66091.7
12.08	65391.7
12.14	66395
12.2	66278.3
12.26	66750.8
12.32	66914.2
12.38	65887.5
12.44	66727.5
12.5	66570
12.56	65380
12.62	65922.5
12.68	67240.8
12.74	66255
12.8	66482.5
12.86	66424.2
12.92	66879.2
12.98	66144.2
13.04	66640
13.1	67847.5
13.16	65951.7
13.22	66109.2
13.28	66348.3
13.34	69580
13.4	68040
13.46	67649.2
13.52	68040
13.58	67340
13.64	67526.7
13.7	67299.2
13.76	68530
13.82	69072.5
13.88	69655.8
13.94	73220
14	70612.5
14.06	68880
14.12	68681.7
14.18	67800.8
14.24	67987.5
14.3	67964.2
14.36	68407.5
14.42	69475
14.48	69288.3
14.54	69358.3
14.6	68594.2
14.66	68664.2
14.72	69626.7
14.78	68524.2
14.84	68180
14.9	68477.5
14.96	68745.8
15.02	69545
15.08	68734.2
15.14	70175
15.2	68675.8
15.26	68973.3
15.32	70105
15.38	70344.2
15.44	68856.7
15.5	70431.7
15.56	69947.5
15.62	69335
15.68	69241.7
15.74	70910
15.8	69801.7
15.86	70315
15.92	70134.2
15.98	71038.3
16.04	70239.2
16.1	71026.7
16.16	70740.8
16.22	71528.3
16.28	72321.7
16.34	71318.3
16.4	71551.7
16.46	70723.3
16.52	70939.2
16.58	72018.3
16.64	71604.2
16.7	71604.2
16.76	73225.8
16.82	72158.3
16.88	72193.3
16.94	72269.2
17	71569.2
17.06	72310
17.12	73115
17.18	72794.2
17.24	73027.5
17.3	73266.7
17.36	73284.2
17.42	72817.5
17.48	74637.5
17.54	74235
17.6	73406.7
17.66	74130
17.72	74923.3
17.78	74590.8
17.84	74007.5
17.9	75850.8
17.96	75308.3
18.02	75413.3
18.08	74725
18.14	75699.2
18.2	76218.3
18.26	75005
18.32	75862.5
18.38	75821.7
18.44	75104.2
18.5	75325.8
18.56	75967.5
18.62	75646.7
18.68	76125
18.74	76655.8
18.8	77064.2
18.86	76422.5
18.92	75920.8
18.98	76801.7
19.04	75751.7
19.1	76486.7
19.16	78096.7
19.22	76265
19.28	76352.5
19.34	77962.5
19.4	77320.8
19.46	78318.3
19.52	78201.7
19.58	77682.5
19.64	78190
19.7	78575
19.76	78703.3
19.82	78359.2
19.88	77729.2
19.94	79018.3
20	79228.3
20.06	80027.5
20.12	78907.5
20.18	79520
20.24	81223.3
20.3	81742.5
20.36	80202.5
20.42	80575.8
20.48	81719.2
20.54	81550
20.6	80185
20.66	80920
20.72	81806.7
20.78	81474.2
20.84	81036.7
20.9	82425
20.96	82979.2
21.02	83160
21.08	85096.7
21.14	84443.3
21.2	87663.3
21.26	89110
21.32	89524.2
21.38	90072.5
21.44	88439.2
21.5	86951.7
21.56	85621.7
21.62	86263.3
21.68	84927.5
21.74	83451.7
21.8	83959.2
21.86	84145.8
21.92	84105
21.98	84595
22.04	83702.5
22.1	85382.5
22.16	84630
22.22	84705.8
22.28	84140
22.34	84793.3
22.4	84145.8
22.46	84665
22.52	84075.8
22.58	84775.8
22.64	84525
22.7	85248.3
22.76	84449.2
22.82	84262.5
22.88	84122.5
22.94	85149.2
23	85137.5
23.06	84927.5
23.12	84653.3
23.18	85720.8
23.24	85184.2
23.3	84758.3
23.36	86590
23.42	86805.8
23.48	85481.7
23.54	86041.7
23.6	87371.7
23.66	87144.2
23.72	87260.8
23.78	87593.3
23.84	89308.3
23.9	89535.8
23.96	91460.8
24.02	92744.2
24.08	94540.8
24.14	98315
24.2	99365
24.26	100164
24.32	97475
24.38	93747.5
24.44	90941.7
24.5	91215.8
24.56	89150.8
24.62	88748.3
24.68	89687.5
24.74	89821.7
24.8	88841.7
24.86	88684.2
24.92	88135.8
24.98	88707.5
25.04	89850.8
25.1	88130
25.16	89798.3
25.22	90381.7
25.28	92277.5
25.34	89524.2
25.4	88439.2
25.46	89034.2
25.52	89920.8
25.58	87745
25.64	89594.2
25.7	89565
25.76	87978.3
25.82	90212.5
25.88	90790
25.94	90224.2
26	89740
26.06	89699.2
26.12	89990.8
26.18	90428.3
26.24	90270.8
26.3	91163.3
26.36	92003.3
26.42	91425.8
26.48	92195.8
26.54	99452.5
26.6	95328.3
26.66	92499.2
26.72	91180.8
26.78	90900.8
26.84	91595
26.9	92674.2
26.96	91064.2
27.02	90177.5
27.08	91589.2
27.14	91624.2
27.2	90527.5
27.26	92470
27.32	92172.5
27.38	98402.5
27.44	93082.5
27.5	92965.8
27.56	92137.5
27.62	90749.2
27.68	91647.5
27.74	92452.5
27.8	91262.5
27.86	93415
27.92	91805
27.98	92487.5
28.04	93327.5
28.1	93607.5
28.16	92598.3
28.22	94313.3
28.28	93240
28.34	93216.7
28.4	92995
28.46	92802.5
28.52	94400.8
28.58	92213.3
28.64	91746.7
28.7	94045
28.76	93467.5
28.82	94190.8
28.88	94190.8
28.94	94476.7
29	93613.3
29.06	93415
29.12	93753.3
29.18	93899.2
29.24	94266.7
29.3	95048.3
29.36	95270
29.42	95275.8
29.48	95509.2
29.54	94902.5
29.6	94243.3
29.66	94797.5
29.72	96495
29.78	94500
29.84	94733.3
29.9	94062.5
29.96	94243.3
30.02	94815
30.08	94511.7
30.14	95573.3
30.2	95398.3
30.26	94173.3
30.32	95561.7
30.38	96150.8
30.44	95853.3
30.5	95485.8
30.56	97101.7
30.62	95870.8
30.68	96145
30.74	95736.7
30.8	96436.7
30.86	95771.7
30.92	96034.2
30.98	96524.2
31.04	96979.2
31.1	96950
31.16	96395.8
31.22	96191.7
31.28	97405
31.34	98460.8
31.4	97428.3
31.46	97848.3
31.52	99312.5
31.58	99137.5
31.64	97154.2
31.7	97842.5
31.76	97924.2
31.82	97836.7
31.88	98355.8
31.94	98128.3
32	98927.5
32.06	99884.2
32.12	99225
32.18	99020.8
32.24	100398
32.3	100829
32.36	99172.5
32.42	99440.8
32.48	101010
32.54	101850
32.6	100660
32.66	102410
32.72	103915
32.78	104755
32.84	107170
32.9	109614
32.96	112858
33.02	119455
33.08	127616
33.14	136547
33.2	134342
33.26	127604
33.32	121619
33.38	115535
33.44	111434
33.5	109101
33.56	108757
33.62	106843
33.68	105350
33.74	103548
33.8	102258
33.86	102521
33.92	101932
33.98	102130
34.04	101366
34.1	101296
34.16	101413
34.22	100573
34.28	101500
34.34	102906
34.4	102550
34.46	102620
34.52	104889
34.58	106021
34.64	106132
34.7	104965
34.76	103781
34.82	103180
34.88	104143
34.94	104119
35	104003
35.06	104831
35.12	106353
35.18	103804
35.24	104405
35.3	106243
35.36	107695
35.42	111399
35.48	112665
35.54	118685
35.6	126560
35.66	136506
35.72	136098
35.78	126298
35.84	116235
35.9	109410
35.96	106330
36.02	105210
36.08	105548
36.14	105187
36.2	104318
36.26	104942
36.32	104014
36.38	103927
36.44	103723
36.5	104084
36.56	104504
36.62	105653
36.68	105309
36.74	107083
36.8	107193
36.86	107748
36.92	109107
36.98	109218
37.04	108617
37.1	107269
37.16	106038
37.22	104644
37.28	103664
37.34	103448
37.4	103612
37.46	103297
37.52	101943
37.58	102853
37.64	101932
37.7	102258
37.76	103244
37.82	103314
37.88	101856
37.94	102293
38	101932
38.06	100724
38.12	101185
38.18	101617
38.24	102708
38.3	101325
38.36	101693
38.42	102480
38.48	102958
38.54	102533
38.6	102556
38.66	102212
38.72	101640
38.78	102608
38.84	102416
38.9	102101
38.96	102305
39.02	101133
39.08	102346
39.14	102708
39.2	102235
39.26	102072
39.32	101278
39.38	101687
39.44	102183
39.5	102206
39.56	100928
39.62	101570
39.68	103565
39.74	102888
39.8	102346
39.86	102865
39.92	103402
39.98	102964
40.04	103104
40.1	102247
40.16	103454
40.22	103810
40.28	104469
40.34	104656
40.4	104767
40.46	103944
40.52	103641
40.58	105053
40.64	104907
40.7	106803
40.76	107141
40.82	110151
40.88	111452
40.94	112735
41	110688
41.06	109859
41.12	105712
41.18	104983
41.24	105688
41.3	104376
41.36	103093
41.42	105385
41.48	104533
41.54	103577
41.6	104872
41.66	103437
41.72	102696
41.78	103203
41.84	102142
41.9	102842
41.96	102019
42.02	101430
42.08	103524
42.14	102982
42.2	103600
42.26	103524
42.32	101553
42.38	102818
42.44	102743
42.5	102387
42.56	101862
42.62	103513
42.68	103793
42.74	106161
42.8	102929
42.86	104522
42.92	102807
42.98	103023
43.04	101827
43.1	102603
43.16	103396
43.22	101990
43.28	101739
43.34	102766
43.4	102218
43.46	103460
43.52	102241
43.58	102842
43.64	102288
43.7	102037
43.76	102142
43.82	101401
43.88	101523
43.94	102048
44	103419
44.06	101774
44.12	102859
44.18	102970
44.24	102183
44.3	102591
44.36	102568
44.42	102638
44.48	102801
44.54	101850
44.6	101774
44.66	101302
44.72	101010
44.78	102194
44.84	101780
44.9	101378
44.96	101080
45.02	101360
45.08	101821
45.14	101214
45.2	101949
45.26	102101
45.32	101990
45.38	102142
45.44	102789
45.5	102428
45.56	102468
45.62	101698
45.68	101745
45.74	101296
45.8	100602
45.86	102573
45.92	100952
45.98	103028
46.04	100812
46.1	101477
46.16	101640
46.22	101144
46.28	102544
46.34	102130
46.4	101903
46.46	102212
46.52	102486
46.58	101681
46.64	102533
46.7	102305
46.76	101255
46.82	102941
46.88	103180
46.94	100678
47	103163
47.06	101879
47.12	102568
47.18	103163
47.24	102515
47.3	101558
47.36	103186
47.42	102288
47.48	100963
47.54	102918
47.6	102527
47.66	104230
47.72	103402
47.78	102439
47.84	103081
47.9	103583
47.96	103868
48.02	103052
48.08	103933
48.14	103863
48.2	103518
48.26	102515
48.32	103098
48.38	102696
48.44	102953
48.5	102346
48.56	101430
48.62	103023
48.68	102906
48.74	102807
48.8	104189
48.86	102212
48.92	103536
48.98	104685
49.04	104335
49.1	103320
49.16	104271
49.22	106184
49.28	107695
49.34	109515
49.4	111551
49.46	113633
49.52	115086
49.58	114683
49.64	112146
49.7	111073
49.76	108442
49.82	106307
49.88	105508
49.94	105123
50	103110
50.06	104802
50.12	104498
50.18	103851
50.24	102982
50.3	102165
50.36	103565
50.42	101815
50.48	104073
50.54	103279
50.6	102958
50.66	102334
50.72	102999
50.78	103174
50.84	103104
50.9	103180
50.96	102883
51.02	103933
51.08	103308
51.14	103728
51.2	103069
51.26	102188
51.32	102264
51.38	102358
51.44	102428
51.5	101996
51.56	103367
51.62	102807
51.68	102958
51.74	101990
51.8	102183
51.86	103145
51.92	104067
51.98	102311
52.04	103822
52.1	103139
52.16	102463
52.22	103063
52.28	103250
52.34	102929
52.4	103005
52.46	103746
52.52	103098
52.58	102544
52.64	102060
52.7	102853
52.76	104253
52.82	102369
52.88	103110
52.94	103816
53	103758
53.06	103618
53.12	103810
53.18	104481
53.24	105928
53.3	105420
53.36	105846
53.42	104405
53.48	107333
53.54	108588
53.6	108407
53.66	107713
53.72	108693
53.78	110343
53.84	113721
53.9	113143
53.96	114608
54.02	118207
54.08	120091
54.14	118633
54.2	118020
54.26	116713
54.32	112513
54.38	109865
54.44	108343
54.5	109212
54.56	106400
54.62	105531
54.68	106283
54.74	105758
54.8	104434
54.86	104703
54.92	103501
54.98	104364
55.04	103618
55.1	103711
55.16	102089
55.22	104860
55.28	102422
55.34	103128
55.4	103647
55.46	102025
55.52	102935
55.58	103419
55.64	101891
55.7	103104
55.76	104073
55.82	104049
55.88	102603
55.94	102836
56	102153
56.06	103478
56.12	104411
56.18	102585
56.24	102317
56.3	104539
56.36	102859
56.42	102888
56.48	103058
56.54	102328
56.6	102853
56.66	103139
56.72	102375
56.78	103676
56.84	103110
56.9	102480
56.96	102970
57.02	103151
57.08	103787
57.14	103180
57.2	104685
57.26	102673
57.32	103664
57.38	103909
57.44	104662
57.5	105268
57.56	105519
57.62	106365
57.68	105257
57.74	105064
57.8	105128
57.86	104743
57.92	103437
57.98	103944
58.04	104341
58.1	103874
58.16	103798
58.22	103962
58.28	103408
58.34	103104
58.4	103781
58.46	103098
58.52	101949
58.58	103157
58.64	102480
58.7	102748
58.76	102066
58.82	101278
58.88	103198
58.94	104061
59	103268
59.06	103192
59.12	103513
59.18	102935
59.24	105618
59.3	103851
59.36	103909
59.42	104230
59.48	103635
59.54	103268
59.6	103472
59.66	104358
59.72	104073
59.78	103728
59.84	103460
59.9	103011
59.96	103816
60.02	104784
60.08	103180
60.14	103559
60.2	102538
60.26	102748
60.32	103139
60.38	103145
60.44	103413
60.5	102673
60.56	103752
60.62	102935
60.68	102416
60.74	103571
60.8	101885
60.86	101617
60.92	102410
60.98	103938
61.04	102591
61.1	103384
61.16	103600
61.22	102113
61.28	102643
61.34	104743
61.4	103180
61.46	103011
61.52	103326
61.58	104294
61.64	103052
61.7	104166
61.76	104685
61.82	104691
61.88	105076
61.94	105356
62	105729
62.06	107048
62.12	107042
62.18	107275
62.24	107707
62.3	109142
62.36	110693
62.42	111615
62.48	112706
62.54	113954
62.6	111831
62.66	110927
62.72	109153
62.78	109509
62.84	106208
62.9	106342
62.96	104749
63.02	104743
63.08	103320
63.14	105228
63.2	104178
63.26	103950
63.32	104341
63.38	103787
63.44	104790
63.5	104388
63.56	105403
63.62	105233
63.68	105793
63.74	105280
63.8	107269
63.86	107543
63.92	111283
63.98	110973
64.04	113167
64.1	114631
64.16	115815
64.22	113149
64.28	113604
64.34	110588
64.4	107491
64.46	107252
64.52	105887
64.58	105047
64.64	103139
64.7	104574
64.76	104020
64.82	103997
64.88	103390
64.94	103682
65	103501
65.06	103262
65.12	102894
65.18	104656
65.24	103011
65.3	102743
65.36	102958
65.42	102789
65.48	102416
65.54	104306
65.6	103157
65.66	103635
65.72	101687
65.78	102877
65.84	102573
65.9	101191
65.96	102538
66.02	103250
66.08	102066
66.14	103565
66.2	102818
66.26	103483
66.32	103845
66.38	103297
66.44	103396
66.5	103133
66.56	104732
66.62	102305
66.68	102859
66.74	103629
66.8	102177
66.86	102853
66.92	102754
66.98	101967
67.04	103011
67.1	103221
67.16	103472
67.22	103833
67.28	103122
67.34	102556
67.4	103483
67.46	102568
67.52	103250
67.58	102620
67.64	103787
67.7	103431
67.76	102923
67.82	103075
67.88	102305
67.94	103367
68	102737
68.06	104014
68.12	103530
68.18	102713
68.24	102894
68.3	103250
68.36	103343
68.42	102673
68.48	103664
68.54	102317
68.6	103227
68.66	103063
68.72	102865
68.78	104743
68.84	104708
68.9	104008
68.96	102002
69.02	103238
69.08	104627
69.14	102328
69.2	104580
69.26	104382
69.32	103693
69.38	104119
69.44	104848
69.5	105012
69.56	105799
69.62	105274
69.68	104545
69.74	105543
69.8	102503
69.86	103431
69.92	103635
69.98	103268
70.04	103279
70.1	103017
70.16	103548
70.22	104580
70.28	102993
70.34	103618
70.4	102113
70.46	103752
70.52	103338
70.58	102807
70.64	101938
70.7	102638
70.76	102661
70.82	102194
70.88	103028
70.94	102859
71	102544
71.06	104020
71.12	102894
71.18	103273
71.24	103268
71.3	103647
71.36	103431
71.42	103717
71.48	104294
71.54	103536
71.6	103769
71.66	103717
71.72	103950
71.78	104615
71.84	105321
71.9	106260
71.96	104767
72.02	105175
72.08	105607
72.14	104679
72.2	105414
72.26	105088
72.32	105537
72.38	104743
72.44	104382
72.5	104300
72.56	104434
72.62	103145
72.68	102276
72.74	102953
72.8	104458
72.86	104726
72.92	104143
72.98	104306
73.04	103653
73.1	102229
73.16	103752
73.22	103355
73.28	103285
73.34	102713
73.4	102626
73.46	102883
73.52	104166
73.58	102719
73.64	102521
73.7	102807
73.76	102375
73.82	102311
73.88	102323
73.94	102947
74	104090
74.06	102725
74.12	102713
74.18	102270
74.24	102054
74.3	102562
74.36	102328
74.42	103536
74.48	102270
74.54	102544
74.6	102801
74.66	103816
74.72	103443
74.78	103915
74.84	104370
74.9	103209
74.96	102573
75.02	102888
75.08	103332
75.14	102503
75.2	103489
75.26	102684
75.32	103880
75.38	103973
75.44	104551
75.5	105111
75.56	104563
75.62	104498
75.68	105373
75.74	103577
75.8	103524
75.86	104277
75.92	103571
75.98	103571
76.04	103367
76.1	102894
76.16	102684
76.22	101914
76.28	103513
76.34	102591
76.4	102906
76.46	102503
76.52	102603
76.58	102066
76.64	103262
76.7	101967
76.76	102393
76.82	103402
76.88	103635
76.94	101932
77	103256
77.06	101774
77.12	102241
77.18	102818
77.24	102550
77.3	102171
77.36	102498
77.42	102608
77.48	102538
77.54	103285
77.6	103098
77.66	103063
77.72	102352
77.78	102918
77.84	103950
77.9	102241
77.96	104178
78.02	103314
78.08	102603
78.14	102509
78.2	103944
78.26	103921
78.32	103402
78.38	103693
78.44	100590
78.5	103944
78.56	102451
78.62	103460
78.68	102445
78.74	102247
78.8	102941
78.86	103361
78.92	102696
78.98	102859
79.04	102410
79.1	102288
79.16	101908
79.22	102223
79.28	102340
79.34	103285
79.4	102964
79.46	102626
79.52	104090
79.58	102247
79.64	102871
79.7	103338
79.76	102002
79.82	102661
79.88	102159
79.94	100876
80	102918